func39
Integration time [ms]: 6000,000
Averaging Nr. [scans]: 3
Smoothing Nr. [pixels]: 2
Data measured with spectrometer [name]: NIR
Wave   ;Sample   ;Dark     ;Reference;Scope Corrected for Dark
[nm]   ;[counts] ;[counts] ;[counts] 

 900,12;    0,000;    0,000;    0,000; 0,00000
 903,33; 6707,667; 6392,333; 6602,000;315,33333
 906,55; 6594,467; 6416,933; 6549,600;177,53333
 909,76;11168,933;10925,533;11102,867;243,40000
 912,97;11050,667;10807,867;10998,467;242,80000
 916,19;10578,067;10331,867;10540,733;246,20000
 919,40; 9673,667; 9427,733; 9618,200;245,93333
 922,62;10819,400;10495,533;10734,133;323,86667
 925,83; 7704,133; 7372,133; 7614,667;332,00000
 929,04; 8495,533; 8138,333; 8373,533;357,20000
 932,25; 9113,867; 8710,200; 8937,267;403,66667
 935,47; 7595,400; 7183,467; 7430,733;411,93333
 938,68; 8800,867; 8359,133; 8617,667;441,73333
 941,89; 9917,200; 9437,267; 9714,667;479,93333
 945,10; 8590,067; 8078,333; 8367,800;511,73333
 948,31; 8251,667; 7663,333; 7962,267;588,33333
 951,52; 9207,333; 8542,333; 8832,533;665,00000
 954,73; 8073,267; 7338,933; 7616,800;734,33333
 957,94; 6965,600; 6074,667; 6331,467;890,93333
 961,15; 8776,600; 7667,800; 7916,733;1108,80000
 964,36; 8003,667; 6580,000; 6840,467;1423,66667
 967,57; 9189,000; 7258,467; 7518,333;1930,53333
 970,78;12256,800; 9528,133; 9780,600;2728,66667
 973,99;13508,533; 9588,200; 9836,000;3920,33333
 977,20;14912,800; 9066,600; 9300,667;5846,20000
 980,41;19577,733;10796,333;10992,467;8781,40000
 983,62;24008,800;10809,400;11015,867;13199,40000
 986,82;30358,267;11239,933;11463,000;19118,33333
 990,03;34828,400; 9980,800;10162,133;24847,60000
 993,24;42554,667;10054,533;10239,533;32500,13333
 996,44;49348,667; 9537,400; 9745,667;39811,26667
 999,65;55615,933;10793,067;10971,200;44822,86667
1002,86;55011,200; 7052,800; 7174,667;47958,40000
1006,06;59285,600; 9665,333; 9840,333;49620,26667
1009,27;55752,733; 9249,333; 9419,733;46503,40000
1012,47;49236,200; 8514,133; 8670,600;40722,06667
1015,68;41087,267; 6889,800; 7060,267;34197,46667
1018,88;36095,933; 9240,667; 9434,533;26855,26667
1022,08;27144,467; 6967,533; 7132,200;20176,93333
1025,29;22447,267; 7199,600; 7367,067;15247,66667
1028,49;18226,667; 6259,533; 6423,267;11967,13333
1031,69;15663,733; 5737,800; 5896,533;9925,93333
1034,90;16245,133; 7626,067; 7787,067;8619,06667
1038,10;15879,333; 8155,067; 8323,867;7724,26667
1041,30;16303,467; 9290,400; 9453,000;7013,06667
1044,50;15081,600; 8694,000; 8853,067;6387,60000
1047,70;16937,600;11128,467;11277,200;5809,13333
1050,90;13643,667; 8350,800; 8501,000;5292,86667
1054,10;15869,133;11044,200;11205,133;4824,93333
1057,30;13732,733; 9311,533; 9484,667;4421,20000
1060,50;13583,267; 9504,267; 9678,067;4079,00000
1063,70;12573,533; 8765,733; 8953,933;3807,80000
1066,90;13925,933;10304,067;10510,000;3621,86667
1070,10;13007,600; 9521,267; 9720,200;3486,33333
1073,30;13251,533; 9812,800;10006,333;3438,73333
1076,49;13391,800; 9944,867;10139,133;3446,93333
1079,69;14165,400;10614,400;10797,000;3551,00000
1082,89;12700,000; 8977,933; 9147,400;3722,06667
1086,09;11903,467; 7933,067; 8095,467;3970,40000
1089,28;13408,600; 9109,467; 9247,067;4299,13333
1092,48;13504,200; 8774,333; 8917,600;4729,86667
1095,67;13880,600; 8650,333; 8798,400;5230,26667
1098,87;15683,067; 9913,333;10036,667;5769,73333
1102,06;16474,667;10097,533;10212,933;6377,13333
1105,26;14674,333; 7702,867; 7805,200;6971,46667
1108,45;19505,400;11868,067;11967,000;7637,33333
1111,64;17906,200; 9636,733; 9725,800;8269,46667
1114,84;17343,733; 8445,267; 8537,733;8898,46667
1118,03;16533,933; 7040,067; 7125,733;9493,86667
1121,22;19632,933; 9549,667; 9641,667;10083,26667
1124,41;18400,133; 7874,000; 7956,267;10526,13333
1127,60;18748,933; 7935,267; 8005,667;10813,66667
1130,79;19740,067; 8809,133; 8893,667;10930,93333
1133,98;20601,133; 9799,600; 9873,933;10801,53333
1137,17;19932,467; 9360,867; 9453,133;10571,60000
1140,36;20405,600;10162,533;10253,000;10243,06667
1143,55;19412,867; 9482,067; 9569,000;9930,80000
1146,74;19520,467; 9820,333; 9880,133;9700,13333
1149,93;19516,267; 9874,667; 9937,133;9641,60000
1153,12;19459,067; 9888,933; 9930,867;9570,13333
1156,30;16643,600; 7109,733; 7158,933;9533,86667
1159,49;17555,933; 8128,467; 8170,533;9427,46667
1162,68;16557,867; 7332,200; 7389,333;9225,66667
1165,86;15562,933; 6625,733; 6685,533;8937,20000
1169,05;14469,600; 5904,333; 5953,933;8565,26667
1172,23;14527,600; 6360,067; 6375,933;8167,53333
1175,42;16053,533; 8252,800; 8273,067;7800,73333
1178,60;15930,800; 8498,867; 8522,467;7431,93333
1181,78;16330,933; 9284,800; 9314,600;7046,13333
1184,97;15596,667; 8893,667; 8929,000;6703,00000
1188,15;16353,000; 9968,733;10012,267;6384,26667
1191,33;14645,600; 8560,267; 8622,000;6085,33333
1194,51;13210,067; 7353,933; 7391,333;5856,13333
1197,69;14409,467; 8719,600; 8765,267;5689,86667
1200,88;13336,400; 7793,667; 7843,800;5542,73333
1204,06;12409,600; 6956,200; 7016,267;5453,40000
1207,24;11702,533; 6307,533; 6372,200;5395,00000
1210,41;12862,533; 7527,333; 7609,933;5335,20000
1213,59;11959,000; 6675,067; 6740,467;5283,93333
1216,77;13140,733; 7883,267; 7948,133;5257,46667
1219,95;15053,133; 9868,200; 9938,333;5184,93333
1223,13;15086,400; 9982,000;10029,800;5104,40000
1226,30;14044,400; 9018,533; 9055,400;5025,86667
1229,48;13820,533; 8875,600; 8921,600;4944,93333
1232,66;14308,333; 9458,400; 9497,600;4849,93333
1235,83;13350,067; 8540,600; 8567,867;4809,46667
1239,01;13232,800; 8465,133; 8495,867;4767,66667
1242,18;14521,400; 9795,133; 9834,800;4726,26667
1245,35;13696,133; 9006,867; 9036,533;4689,26667
1248,53;14142,200; 9470,067; 9507,667;4672,13333
1251,70;13535,400; 8923,733; 8956,200;4611,66667
1254,87;12295,600; 7775,000; 7794,733;4520,60000
1258,04;11218,933; 6711,867; 6734,867;4507,06667
1261,21;11416,200; 6942,667; 6941,000;4473,53333
1264,38;10703,200; 6240,133; 6239,133;4463,06667
1267,55;10381,200; 5910,600; 5898,600;4470,60000
1270,72;11136,067; 6568,267; 6579,333;4567,80000
1273,89;11692,667; 7095,133; 7088,867;4597,53333
1277,06;12930,200; 8293,467; 8319,533;4636,73333
1280,23;12779,267; 8124,933; 8137,800;4654,33333
1283,40;13596,667; 8900,800; 8946,267;4695,86667
1286,56;14992,667;10338,067;10364,133;4654,60000
1289,73;14914,933;10312,667;10359,000;4602,26667
1292,89;12719,600; 8214,200; 8248,733;4505,40000
1296,06;14204,933; 9778,667; 9836,267;4426,26667
1299,22;13452,133; 9162,400; 9202,667;4289,73333
1302,39;14851,333;10650,867;10718,133;4200,46667
1305,55;13707,600; 9598,933; 9660,533;4108,66667
1308,71;15139,933;11101,333;11159,667;4038,60000
1311,88;13758,733; 9802,800; 9853,133;3955,93333
1315,04;12187,067; 8318,600; 8356,067;3868,46667
1318,20;11214,133; 7423,133; 7450,267;3791,00000
1321,36;11838,067; 8143,333; 8152,667;3694,73333
1324,52;12994,467; 9367,333; 9391,933;3627,13333
1327,68;10530,733; 7666,267; 7681,267;2864,46667
1330,84;12966,133;10176,733;10208,733;2789,40000
1334,00;10694,800; 8001,800; 8018,933;2693,00000
1337,15;10937,200; 8315,133; 8350,667;2622,06667
1340,31;10345,867; 7822,067; 7856,267;2523,80000
1343,47;11094,467; 7978,867; 8021,333;3115,60000
1346,62;11544,133; 8494,733; 8541,067;3049,40000
1349,78;11508,600; 8555,267; 8596,533;2953,33333
1352,93;12207,000; 9356,400; 9415,600;2850,60000
1356,09;11753,467; 9002,800; 9053,200;2750,66667
1359,24;11639,200; 9006,600; 9050,333;2632,60000
1362,39;10155,400; 7627,200; 7665,733;2528,20000
1365,55;10796,200; 8377,333; 8423,933;2418,86667
1368,70; 8626,467; 6304,200; 6328,000;2322,26667
1371,85; 7748,200; 5544,467; 5560,933;2203,73333
1375,00; 9940,867; 7853,133; 7873,533;2087,73333
1378,15; 9107,867; 7137,133; 7162,400;1970,73333
1381,30; 8633,600; 6750,400; 6765,333;1883,20000
1384,45; 9915,533; 8141,867; 8136,800;1773,66667
1387,59; 9803,600; 8086,400; 8076,933;1717,20000
1390,74; 8774,600; 7087,667; 7084,000;1686,93333
1393,89;10336,400; 8701,467; 8693,133;1634,93333
1397,03; 9051,333; 7764,533; 7758,067;1286,80000
1400,18; 9572,533; 8303,467; 8325,800;1269,06667
1403,32; 9514,400; 8282,533; 8323,133;1231,86667
1406,47; 9850,733; 8652,200; 8674,400;1198,53333
1409,61; 8614,933; 7452,000; 7466,667;1162,93333
1412,76;11908,200;10467,467;10487,733;1440,73333
1415,90;10478,933; 9063,467; 9074,800;1415,46667
1419,04;10250,867; 8857,733; 8872,000;1393,13333
1422,18;10965,000; 9603,067; 9623,667;1361,93333
1425,32;10232,867; 8908,800; 8951,800;1324,06667
1428,46; 9070,133; 7771,400; 7815,200;1298,73333
1431,60;10197,000; 8950,600; 9001,000;1246,40000
1434,74; 9010,133; 7776,867; 7829,733;1233,26667
1437,87; 7674,800; 6465,933; 6518,400;1208,86667
1441,01; 9456,733; 8272,533; 8309,533;1184,20000
1444,15; 8210,467; 7058,000; 7090,333;1152,46667
1447,28; 7204,533; 6074,067; 6105,667;1130,46667
1450,42; 9822,533; 8741,067; 8772,867;1081,46667
1453,55;10183,267; 9133,200; 9182,800;1050,06667
1456,69; 9966,067; 8944,800; 8980,733;1021,26667
1459,82; 9811,067; 8829,867; 8848,600;981,20000
1462,95;11310,133;10356,600;10367,600;953,53333
1466,08; 9568,667; 8652,267; 8642,933;916,40000
1469,21;11111,800;10250,600;10205,867;861,20000
1472,34;10163,467; 9324,133; 9290,733;839,33333
1475,47;11296,267;10484,933;10474,400;811,33333
1478,60;11306,600;10505,400;10498,267;801,20000
1481,73;10947,800;10173,467;10155,067;774,33333
1484,86;10746,333; 9982,067; 9983,533;764,26667
1487,98; 9382,200; 8621,200; 8622,600;761,00000
1491,11;11364,733;10613,667;10599,200;751,06667
1494,23; 8842,667; 8116,867; 8098,400;725,80000
1497,36; 9993,600; 9266,267; 9274,733;727,33333
1500,48; 8512,200; 7794,267; 7798,467;717,93333
1503,60;10058,400; 9364,400; 9355,067;694,00000
1506,73; 7659,000; 6974,333; 6984,867;684,66667
1509,85; 9557,267; 8912,267; 8907,533;645,00000
1512,97;10445,067; 9823,600; 9806,667;621,46667
1516,09; 9040,867; 8435,133; 8433,600;605,73333
1519,21; 9164,933; 8569,667; 8572,867;595,26667
1522,33;10255,400; 9665,933; 9666,400;589,46667
1525,44; 9156,000; 8551,867; 8563,667;604,13333
1528,56; 8850,200; 8251,400; 8269,000;598,80000
1531,68; 9997,333; 9397,600; 9403,933;599,73333
1534,79;10974,267;10389,000;10404,133;585,26667
1537,91; 9920,933; 9360,400; 9376,667;560,53333
1541,02;10211,400; 9649,733; 9672,000;561,66667
1544,14; 9633,533; 9075,667; 9105,800;557,86667
1547,25; 8628,200; 8102,733; 8120,467;525,46667
1550,36; 9085,600; 8587,400; 8589,067;498,20000
1553,47; 7896,933; 7395,467; 7400,267;501,46667
1556,58; 9243,533; 8761,600; 8788,267;481,93333
1559,69; 7933,000; 7481,067; 7494,067;451,93333
1562,80;10245,600; 9802,333; 9828,267;443,26667
1565,91; 8334,000; 7892,067; 7941,667;441,93333
1569,02;10620,733;10192,667;10245,733;428,06667
1572,12;10668,067;10268,000;10287,800;400,06667
1575,23;11145,333;10750,133;10771,000;395,20000
1578,33; 9995,267; 9582,600; 9618,600;412,66667
1581,44;11192,733;10790,067;10812,867;402,66667
1584,54; 9756,467; 9371,400; 9363,867;385,06667
1587,64; 8907,333; 8527,600; 8531,000;379,73333
1590,75; 8734,133; 8350,133; 8354,200;384,00000
1593,85; 9568,000; 9222,267; 9204,400;345,73333
1596,95; 8383,733; 8047,800; 8037,000;335,93333
1600,05;10461,333;10140,000;10132,800;321,33333
1603,15; 8957,267; 8630,667; 8625,467;326,60000
1606,24; 9286,400; 8985,600; 8975,733;300,80000
1609,34; 8140,667; 7835,267; 7833,333;305,40000
1612,44; 7646,933; 7356,867; 7338,400;290,06667
1615,53; 7204,667; 6892,000; 6904,667;312,66667
1618,63; 6537,200; 6293,667; 6301,667;243,53333
1621,72; 8631,067; 8406,733; 8407,333;224,33333
1624,81; 9353,533; 9134,867; 9142,533;218,66667
1627,91;10448,000;10232,733;10250,667;215,26667
1631,00; 9051,133; 8880,867; 8884,067;170,26667
1634,09;11405,867;11198,400;11202,667;207,46667
1637,18; 8381,800; 8169,800; 8190,667;212,00000
1640,27; 8840,267; 8646,533; 8661,467;193,73333
1643,36; 7839,800; 7656,133; 7679,800;183,66667
1646,44; 7380,867; 7202,400; 7233,333;178,46667
1649,53; 7030,467; 6870,533; 6888,600;159,93333
1652,62; 9197,733; 9047,467; 9052,267;150,26667
1655,70; 7389,867; 7238,933; 7238,733;150,93333
1658,78; 7981,467; 7828,933; 7837,267;152,53333
1661,87; 8562,267; 8408,267; 8413,133;154,00000
1664,95; 9610,200; 9464,667; 9489,000;145,53333
1668,03; 9702,333; 9572,067; 9595,200;130,26667
1671,11; 9269,200; 9135,533; 9173,000;133,66667
1674,19;11067,533;10968,133;10986,800;99,40000
1677,27;11586,067;11482,533;11510,600;103,53333
1680,35;10401,867;10298,000;10310,600;103,86667
1683,43; 9191,400; 9082,333; 9105,533;109,06667
1686,50;10324,200;10228,133;10249,333;96,06667
1689,58; 9645,000; 9532,533; 9563,933;112,46667
1692,65;10378,667;10290,600;10303,933;88,06667
1695,73;10633,000;10522,600;10547,733;110,40000
1698,80; 9666,400; 9549,800; 9588,533;116,60000
1701,87;10612,000;10447,667;10467,667;164,33333
1704,94; 3078,667; 2953,667; 3024,667;125,00000

